{
  "resourceType" : "TestScript",
  "id" : "TestScript-Scenario3",
  "text" : {
    "status" : "generated",
    "div" : "<div xmlns=\"http://www.w3.org/1999/xhtml\"><p><b>Generated Narrative: TestScript</b><a name=\"TestScript-Scenario3\"> </a></p><div style=\"display: inline-block; background-color: #d9e0e7; padding: 6px; margin: 4px; border: 1px solid #8da1b4; border-radius: 5px; line-height: 60%\"><p style=\"margin-bottom: 0px\">Resource TestScript &quot;TestScript-Scenario3&quot; </p></div><p><b>url</b>: <code>http://</code></p><p><b>version</b>: 0.1.0</p><p><b>name</b>: Scenario 3</p><p><b>title</b>: R4 TestScript - Back End Acces</p><p><b>status</b>: draft</p><p><b>date</b>: 2022-06-14 23:19:30+0000</p><p><b>publisher</b>: MITRE</p><p><b>contact</b>: MITRE: <a href=\"https://www.mitre.org\">https://www.mitre.org</a></p><p><b>jurisdiction</b>: United States of America <span style=\"background: LightGoldenRodYellow; margin: 4px; border: 1px solid khaki\"> (<a href=\"http://terminology.hl7.org/5.0.0/CodeSystem-ISO3166Part1.html\">ISO 3166-1 Codes for the representation of names of countries and their subdivisions — Part 1: Country code</a>#US)</span></p><blockquote><p><b>fixture</b></p><p><b>autocreate</b>: true</p><p><b>autodelete</b>: true</p><p><b>resource</b>: <a href=\"registration-request-3\">registration-request-3: Backend Service - Registration Request</a></p></blockquote><blockquote><p><b>fixture</b></p><p><b>autocreate</b>: true</p><p><b>autodelete</b>: true</p><p><b>resource</b>: <a href=\"registration-response-3\">registration-response-3: Backend Service - Registration Response</a></p></blockquote><blockquote><p><b>test</b></p><p><b>name</b>: 1.1 Register backend service</p><blockquote><p><b>action</b></p><h3>Operations</h3><table class=\"grid\"><tr><td>-</td><td><b>Resource</b></td><td><b>Label</b></td><td><b>Description</b></td><td><b>Accept</b></td><td><b>EncodeRequestUrl</b></td><td><b>Method</b></td><td><b>SourceId</b></td><td><b>Url</b></td></tr><tr><td>*</td><td>Binary</td><td>Register backend service</td><td>PUT /oauth/registration</td><td>json</td><td>true</td><td>put</td><td>registration-request-3</td><td>/oauth/registration</td></tr></table></blockquote><blockquote><p><b>action</b></p><h3>Asserts</h3><table class=\"grid\"><tr><td>-</td><td><b>Description</b></td><td><b>Response</b></td><td><b>SourceId</b></td><td><b>WarningOnly</b></td></tr><tr><td>*</td><td>Confirm that the returned HTTP status is 201(Success).</td><td>okay</td><td>registration-response-3</td><td>false</td></tr></table></blockquote></blockquote></div>"
  },
  "url" : "http://",
  "version" : "0.1.0",
  "name" : "Scenario 3",
  "title" : "R4 TestScript - Back End Acces",
  "status" : "draft",
  "date" : "2022-06-14T23:19:30.696Z",
  "publisher" : "MITRE",
  "contact" : [{
    "name" : "MITRE",
    "telecom" : [{
      "system" : "url",
      "value" : "https://www.mitre.org"
    }]
  }],
  "jurisdiction" : [{
    "coding" : [{
      "system" : "urn:iso:std:iso:3166",
      "code" : "US"
    }]
  }],
  "fixture" : [{
    "id" : "registration-request-3",
    "autocreate" : true,
    "autodelete" : true,
    "resource" : {
      "reference" : "registration-request-3",
      "display" : "Backend Service - Registration Request"
    }
  },
  {
    "id" : "registration-response-3",
    "autocreate" : true,
    "autodelete" : true,
    "resource" : {
      "reference" : "registration-response-3",
      "display" : "Backend Service - Registration Response"
    }
  }],
  "test" : [{
    "id" : "2823af51-4a7e-5887-3f72-0a10579b4acc",
    "name" : "1.1 Register backend service",
    "action" : [{
      "operation" : {
        "resource" : "Binary",
        "label" : "Register backend service",
        "description" : "PUT /oauth/registration",
        "accept" : "json",
        "encodeRequestUrl" : true,
        "method" : "put",
        "sourceId" : "registration-request-3",
        "url" : "/oauth/registration"
      }
    },
    {
      "assert" : {
        "description" : "Confirm that the returned HTTP status is 201(Success).",
        "response" : "okay",
        "sourceId" : "registration-response-3",
        "warningOnly" : false
      }
    }]
  }]
}